File: RAMAN_DATA/Group1/SLAresin.csv
Created as New Dataset,
Raman Shift / cm-1,INT
3200.00,74
3197.00,19
3194.00,73
3191.00,13
3188.00,232
3185.00,289
3182.00,150
3179.00,38
3176.00,67
3173.00,140
3170.00,253
3167.00,228
3164.00,198
3161.00,132
3158.00,70
3155.00,70
3152.00,7
3149.00,-45
3146.00,107
3143.00,650
3140.00,27
3137.00,-175
3134.00,23
3131.00,67
3128.00,67
3125.00,60
3122.00,125
3119.00,66
3116.00,-57
3113.00,-11
3110.00,-27
3107.00,-29
3104.00,-40
3101.00,-12
3098.00,23
3095.00,64
3092.00,175
3089.00,62
3086.00,24
3083.00,24
3080.00,44
3077.00,-48
3074.00,-24
3071.00,8
3068.00,91
3065.00,60
3062.00,-36
3059.00,-30
3056.00,-36
3053.00,68
3050.00,69
3047.00,91
3044.00,75
3041.00,92
3038.00,132
3035.00,139
3032.00,66
3029.00,11
3026.00,78
3023.00,222
3020.00,286
3017.00,358
3014.00,373
3011.00,262
3008.00,187
3005.00,185
3002.00,162
2999.00,206
2996.00,162
2993.00,198
2990.00,220
2987.00,206
2984.00,148
2981.00,132
2978.00,120
2975.00,171
2972.00,256
2969.00,275
2966.00,272
2963.00,269
2960.00,285
2957.00,283
2954.00,298
2951.00,296
2948.00,292
2945.00,255
2942.00,266
2939.00,263
2936.00,288
2933.00,198
2930.00,208
2927.00,266
2924.00,275
2921.00,279
2918.00,267
2915.00,239
2912.00,160
2909.00,185
2906.00,161
2903.00,159
2900.00,157
2897.00,178
2894.00,202
2891.00,189
2888.00,198
2885.00,134
2882.00,98
2879.00,111
2876.00,141
2873.00,175
2870.00,170
2867.00,152
2864.00,124
2861.00,113
2858.00,110
2855.00,103
2852.00,90
2849.00,126
2846.00,103
2843.00,110
2840.00,72
2837.00,57
2834.00,50
2831.00,22
2828.00,32
2825.00,21
2822.00,70
2819.00,64
2816.00,89
2813.00,105
2810.00,72
2807.00,71
2804.00,29
2801.00,11
2798.00,20
2795.00,60
2792.00,74
2789.00,73
2786.00,86
2783.00,100
2780.00,79
2777.00,78
2774.00,43
2771.00,38
2768.00,55
2765.00,62
2762.00,62
2759.00,40
2756.00,45
2753.00,23
2750.00,10
2747.00,13
2744.00,26
2741.00,-21
2738.00,52
2735.00,15
2732.00,-74
2729.00,10
2726.00,10
2723.00,37
2720.00,51
2717.00,61
2714.00,59
2711.00,34
2708.00,33
2705.00,47
2702.00,52
2699.00,70
2696.00,70
2693.00,64
2690.00,62
2687.00,58
2684.00,47
2681.00,44
2678.00,37
2675.00,16
2672.00,18
2669.00,20
2666.00,29
2663.00,38
2660.00,59
2657.00,80
2654.00,60
2651.00,31
2648.00,36
2645.00,29
2642.00,27
2639.00,23
2636.00,14
2633.00,21
2630.00,27
2627.00,40
2624.00,32
2621.00,31
2618.00,12
2615.00,17
2612.00,32
2609.00,53
2606.00,55
2603.00,58
2600.00,39
2597.00,27
2594.00,31
2591.00,8
2588.00,10
2585.00,2
2582.00,-5
2579.00,49
2576.00,13
2573.00,22
2570.00,51
2567.00,17
2564.00,26
2561.00,22
2558.00,6
2555.00,23
2552.00,26
2549.00,24
2546.00,23
2543.00,23
2540.00,22
2537.00,29
2534.00,36
2531.00,34
2528.00,56
2525.00,53
2522.00,27
2519.00,13
2516.00,13
2513.00,12
2510.00,12
2507.00,18
2504.00,25
2501.00,29
2498.00,29
2495.00,28
2492.00,26
2489.00,18
2486.00,24
2483.00,34
2480.00,26
2477.00,46
2474.00,29
2471.00,13
2468.00,9
2465.00,6
2462.00,4
2459.00,8
2456.00,16
2453.00,12
2450.00,15
2447.00,17
2444.00,18
2441.00,11
2438.00,16
2435.00,16
2432.00,14
2429.00,3
2426.00,1
2423.00,-2
2420.00,-2
2417.00,-3
2414.00,15
2411.00,55
2408.00,-1
2405.00,3
2402.00,22
2399.00,-1
2396.00,15
2393.00,25
2390.00,15
2387.00,9
2384.00,15
2381.00,13
2378.00,26
2375.00,25
2372.00,24
2369.00,24
2366.00,23
2363.00,9
2360.00,19
2357.00,31
2354.00,0
2351.00,-3
2348.00,12
2345.00,9
2342.00,9
2339.00,11
2336.00,11
2333.00,8
2330.00,9
2327.00,9
2324.00,9
2321.00,8
2318.00,5
2315.00,4
2312.00,1
2309.00,2
2306.00,0
2303.00,5
2300.00,15
2297.00,22
2294.00,23
2291.00,22
2288.00,18
2285.00,14
2282.00,-1
2279.00,-7
2276.00,-5
2273.00,-8
2270.00,-5
2267.00,-5
2264.00,-1
2261.00,10
2258.00,10
2255.00,12
2252.00,12
2249.00,8
2246.00,6
2243.00,9
2240.00,-1
2237.00,2
2234.00,7
2231.00,3
2228.00,9
2225.00,35
2222.00,32
2219.00,24
2216.00,33
2213.00,4
2210.00,-3
2207.00,-1
2204.00,-4
2201.00,-5
2198.00,-11
2195.00,-11
2192.00,-8
2189.00,-5
2186.00,-3
2183.00,-6
2180.00,-6
2177.00,-5
2174.00,-10
2171.00,-7
2168.00,-5
2165.00,-6
2162.00,-7
2159.00,-1
2156.00,-5
2153.00,-10
2150.00,-16
2147.00,-17
2144.00,-17
2141.00,-15
2138.00,-12
2135.00,-10
2132.00,-5
2129.00,-8
2126.00,-12
2123.00,-15
2120.00,-6
2117.00,-3
2114.00,-0
2111.00,0
2108.00,3
2105.00,5
2102.00,2
2099.00,1
2096.00,-0
2093.00,-1
2090.00,-1
2087.00,-0
2084.00,-2
2081.00,-6
2078.00,-3
2075.00,-12
2072.00,-3
2069.00,-2
2066.00,-1
2063.00,-6
2060.00,-5
2057.00,-8
2054.00,-11
2051.00,-13
2048.00,-5
2045.00,-5
2042.00,-6
2039.00,-0
2036.00,5
2033.00,11
2030.00,-2
2027.00,6
2024.00,3
2021.00,-10
2018.00,-8
2015.00,-4
2012.00,-5
2009.00,-4
2006.00,-2
2003.00,0
2000.00,2
1997.00,-4
1994.00,-2
1991.00,4
1988.00,-0
1985.00,0
1982.00,-3
1979.00,-6
1976.00,-6
1973.00,4
1970.00,18
1967.00,20
1964.00,18
1961.00,12
1958.00,14
1955.00,17
1952.00,18
1949.00,18
1946.00,18
1943.00,18
1940.00,16
1937.00,16
1934.00,15
1931.00,19
1928.00,21
1925.00,26
1922.00,27
1919.00,26
1916.00,25
1913.00,24
1910.00,18
1907.00,16
1904.00,23
1901.00,25
1898.00,26
1895.00,28
1892.00,32
1889.00,31
1886.00,32
1883.00,34
1880.00,32
1877.00,29
1874.00,31
1871.00,31
1868.00,30
1865.00,33
1862.00,35
1859.00,34
1856.00,33
1853.00,36
1850.00,36
1847.00,35
1844.00,34
1841.00,34
1838.00,34
1835.00,35
1832.00,36
1829.00,37
1826.00,39
1823.00,40
1820.00,37
1817.00,38
1814.00,40
1811.00,31
1808.00,23
1805.00,29
1802.00,35
1799.00,32
1796.00,22
1793.00,21
1790.00,20
1787.00,20
1784.00,20
1781.00,26
1778.00,34
1775.00,35
1772.00,35
1769.00,36
1766.00,35
1763.00,33
1760.00,33
1757.00,33
1754.00,33
1751.00,33
1748.00,34
1745.00,34
1742.00,36
1739.00,37
1736.00,41
1733.00,48
1730.00,52
1727.00,53
1724.00,58
1721.00,58
1718.00,57
1715.00,59
1712.00,60
1709.00,60
1706.00,59
1703.00,56
1700.00,55
1697.00,57
1694.00,55
1691.00,56
1688.00,56
1685.00,52
1682.00,48
1679.00,47
1676.00,47
1673.00,46
1670.00,45
1667.00,45
1664.00,48
1661.00,54
1658.00,53
1655.00,57
1652.00,61
1649.00,61
1646.00,61
1643.00,62
1640.00,68
1637.00,66
1634.00,66
1631.00,64
1628.00,62
1625.00,61
1622.00,60
1619.00,58
1616.00,56
1613.00,57
1610.00,57
1607.00,57
1604.00,58
1601.00,60
1598.00,64
1595.00,63
1592.00,56
1589.00,57
1586.00,64
1583.00,57
1580.00,48
1577.00,57
1574.00,66
1571.00,69
1568.00,70
1565.00,68
1562.00,68
1559.00,68
1556.00,66
1553.00,65
1550.00,66
1547.00,65
1544.00,64
1541.00,61
1538.00,62
1535.00,64
1532.00,64
1529.00,66
1526.00,67
1523.00,67
1520.00,66
1517.00,66
1514.00,66
1511.00,66
1508.00,73
1505.00,81
1502.00,82
1499.00,78
1496.00,78
1493.00,80
1490.00,83
1487.00,88
1484.00,99
1481.00,106
1478.00,105
1475.00,105
1472.00,105
1469.00,104
1466.00,105
1463.00,110
1460.00,118
1457.00,127
1454.00,136
1451.00,140
1448.00,139
1445.00,134
1442.00,131
1439.00,130
1436.00,128
1433.00,120
1430.00,112
1427.00,108
1424.00,108
1421.00,108
1418.00,110
1415.00,116
1412.00,122
1409.00,121
1406.00,121
1403.00,125
1400.00,130
1397.00,132
1394.00,131
1391.00,126
1388.00,124
1385.00,124
1382.00,125
1379.00,124
1376.00,125
1373.00,125
1370.00,124
1367.00,122
1364.00,121
1361.00,119
1358.00,117
1355.00,114
1352.00,104
1349.00,101
1346.00,98
1343.00,96
1340.00,96
1337.00,98
1334.00,97
1331.00,96
1328.00,94
1325.00,94
1322.00,89
1319.00,85
1316.00,84
1313.00,84
1310.00,83
1307.00,80
1304.00,77
1301.00,76
1298.00,76
1295.00,76
1292.00,73
1289.00,68
1286.00,67
1283.00,65
1280.00,63
1277.00,60
1274.00,53
1271.00,47
1268.00,45
1265.00,45
1262.00,47
1259.00,45
1256.00,44
1253.00,44
1250.00,45
1247.00,44
1244.00,44
1241.00,45
1238.00,44
1235.00,41
1232.00,37
1229.00,35
1226.00,39
1223.00,35
1220.00,33
1217.00,32
1214.00,34
1211.00,33
1208.00,31
1205.00,30
1202.00,30
1199.00,29
1196.00,26
1193.00,22
1190.00,21
1187.00,21
1184.00,20
1181.00,19
1178.00,19
1175.00,18
1172.00,15
1169.00,13
1166.00,13
1163.00,13
1160.00,14
1157.00,14
1154.00,15
1151.00,19
1148.00,21
1145.00,21
1142.00,19
1139.00,22
1136.00,23
1133.00,21
1130.00,20
1127.00,20
1124.00,20
1121.00,20
1118.00,19
1115.00,18
1112.00,16
1109.00,8
1106.00,6
1103.00,6
1100.00,5
1097.00,5
1094.00,4
1091.00,4
1088.00,2
1085.00,-0
1082.00,-1
1079.00,-1
1076.00,-5
1073.00,-4
1070.00,-2
1067.00,-3
1064.00,-5
1061.00,-5
1058.00,-3
1055.00,-3
1052.00,-4
1049.00,-4
1046.00,-4
1043.00,-4
1040.00,-3
1037.00,-2
1034.00,-1
1031.00,-1
1028.00,-1
1025.00,-2
1022.00,-2
1019.00,-2
1016.00,-2
1013.00,-2
1010.00,-1
1007.00,1
1004.00,3
1001.00,4
998.00,5
995.00,5
992.00,6
989.00,6
986.00,6
983.00,6
980.00,8
977.00,10
974.00,11
971.00,11
968.00,11
965.00,11
962.00,10
959.00,10
956.00,10
953.00,9
950.00,5
947.00,3
944.00,3
941.00,2
938.00,2
935.00,3
932.00,3
929.00,2
926.00,3
923.00,6
920.00,7
917.00,7
914.00,8
911.00,7
908.00,7
905.00,7
902.00,7
899.00,7
896.00,8
893.00,11
890.00,14
887.00,15
884.00,16
881.00,16
878.00,17
875.00,19
872.00,20
869.00,20
866.00,17
863.00,16
860.00,15
857.00,15
854.00,14
851.00,14
848.00,14
845.00,14
842.00,14
839.00,13
836.00,12
833.00,11
830.00,11
827.00,9
824.00,7
821.00,5
818.00,3
815.00,2
812.00,2
809.00,1
806.00,1
803.00,1
800.00,1
797.00,-1
794.00,-2
791.00,-1
788.00,1
785.00,3
782.00,-1
779.00,-0
776.00,3
773.00,2
770.00,3
767.00,4
764.00,2
761.00,1
758.00,1
755.00,1
752.00,1
749.00,1
746.00,1
743.00,-1
740.00,-4
737.00,-4
734.00,-6
731.00,-8
728.00,-9
725.00,-8
722.00,-6
719.00,-8
716.00,-9
713.00,-10
710.00,-6
707.00,-4
704.00,-4
701.00,-2
698.00,-1
695.00,-2
692.00,-2
689.00,-3
686.00,-3
683.00,-3
680.00,-3
677.00,-6
674.00,-5
671.00,-4
668.00,-6
665.00,-6
662.00,-6
659.00,-6
656.00,-4
653.00,-1
650.00,-0
647.00,1
644.00,1
641.00,2
638.00,2
635.00,2
632.00,2
629.00,2
626.00,3
623.00,4
620.00,5
617.00,6
614.00,8
611.00,11
608.00,13
605.00,16
602.00,18
599.00,18
596.00,19
593.00,21
590.00,19
587.00,16
584.00,14
581.00,13
578.00,13
575.00,12
572.00,11
569.00,10
566.00,8
563.00,7
560.00,9
557.00,8
554.00,7
551.00,7
548.00,6
545.00,5
542.00,5
539.00,5
536.00,5
533.00,3
530.00,2
527.00,3
524.00,4
521.00,4
518.00,4
515.00,5
512.00,7
509.00,6
506.00,7
503.00,8
500.00,7
497.00,7
494.00,10
491.00,12
488.00,14
485.00,12
482.00,11
479.00,10
476.00,10
473.00,10
470.00,13
467.00,14
464.00,14
461.00,14
458.00,14
455.00,14
452.00,14
449.00,14
446.00,14
443.00,13
440.00,12
437.00,12
434.00,13
431.00,13
428.00,12
425.00,12
422.00,11
419.00,12
416.00,15
413.00,17
410.00,19
407.00,19
404.00,18
401.00,18
398.00,17
395.00,17
392.00,17
389.00,17
386.00,18
383.00,20
380.00,21
377.00,20
374.00,19
371.00,19
368.00,18
365.00,17
362.00,16
359.00,15
356.00,14
353.00,14
350.00,13
347.00,13
344.00,15
341.00,17
338.00,18
335.00,18
332.00,19
329.00,18
326.00,18
323.00,17
320.00,16
317.00,15
314.00,15
311.00,14
308.00,14
305.00,13
302.00,13
299.00,15
296.00,19
293.00,20
290.00,21
287.00,20
284.00,19
281.00,18
278.00,17
275.00,16
272.00,15
269.00,14
266.00,14
263.00,14
260.00,14
257.00,15
254.00,15
251.00,15
248.00,15
245.00,16
242.00,15
239.00,15
236.00,14
233.00,14
230.00,14
227.00,13
224.00,13
221.00,13
218.00,12
215.00,12
212.00,10
209.00,9
206.00,8
203.00,8
200.00,8
197.00,7
194.00,6
191.00,5
188.00,5
185.00,4
182.00,4
179.00,3
176.00,2
173.00,1
170.00,2
167.00,2
164.00,3
161.00,3
158.00,4
155.00,3
152.00,2
149.00,1
146.00,2
143.00,6
140.00,12
137.00,19
134.00,23
131.00,27
128.00,33
125.00,38
122.00,42
119.00,45
116.00,48
113.00,54
110.00,58
107.00,58
104.00,63
101.00,67
100.00,67