File: converter_xlsx_FTIR/group1.xlsx-SLAResin.csv
3996.36,0.006753
3992.5,0.006913
3988.64,0.006593
3984.79,0.006609
3980.93,0.006895
3977.07,0.007188
3973.21,0.00705
3969.36,0.007294
3965.5,0.007296
3961.64,0.007157
3957.78,0.007004
3953.93,0.006855
3950.07,0.007232
3946.21,0.007213
3942.35,0.00685
3938.5,0.006871
3934.64,0.006945
3930.78,0.00688
3926.92,0.006842
3923.07,0.006395
3919.21,0.00679
3915.35,0.006955
3911.49,0.006529
3907.64,0.006657
3903.78,0.006517
3899.92,0.006708
3896.06,0.006993
3892.21,0.006988
3888.35,0.006994
3884.49,0.006695
3880.63,0.00676
3876.78,0.00669
3872.92,0.006738
3869.06,0.006778
3865.2,0.006931
3861.35,0.006648
3857.49,0.007018
3853.63,0.00697
3849.77,0.006425
3845.92,0.006512
3842.06,0.006777
3838.2,0.006819
3834.34,0.00671
3830.49,0.00673
3826.63,0.006635
3822.77,0.006541
3818.91,0.006726
3815.06,0.00691
3811.2,0.006925
3807.34,0.006678
3803.48,0.006721
3799.63,0.006647
3795.77,0.006415
3791.91,0.006196
3788.05,0.006078
3784.2,0.006984
3780.34,0.006735
3776.48,0.006654
3772.62,0.006348
3768.77,0.006144
3764.91,0.006271
3761.05,0.006143
3757.19,0.006292
3753.34,0.006738
3749.48,0.006898
3745.62,0.006766
3741.76,0.006413
3737.91,0.006278
3734.05,0.006327
3730.19,0.005969
3726.33,0.006222
3722.48,0.006441
3718.62,0.005769
3714.76,0.006245
3710.9,0.006634
3707.05,0.006343
3703.19,0.005603
3699.33,0.006059
3695.47,0.006324
3691.62,0.006015
3687.76,0.006144
3683.9,0.006163
3680.04,0.006626
3676.19,0.006539
3672.33,0.006409
3668.47,0.00636
3664.61,0.006625
3660.76,0.006698
3656.9,0.006249
3653.04,0.006602
3649.18,0.006981
3645.33,0.006755
3641.47,0.007049
3637.61,0.006902
3633.75,0.007003
3629.9,0.007215
3626.04,0.006977
3622.18,0.007215
3618.32,0.00768
3614.47,0.007965
3610.61,0.008117
3606.75,0.008104
3602.89,0.007788
3599.04,0.008375
3595.18,0.008262
3591.32,0.008416
3587.46,0.008692
3583.61,0.008461
3579.749,0.00847
3575.89,0.008443
3572.03,0.008665
3568.18,0.008996
3564.32,0.009246
3560.46,0.009308
3556.6,0.009423
3552.75,0.009617
3548.89,0.00989
3545.03,0.009592
3541.17,0.009876
3537.32,0.010084
3533.46,0.010171
3529.6,0.010119
3525.74,0.010275
3521.89,0.010397
3518.03,0.01069
3514.17,0.010326
3510.31,0.010495
3506.46,0.010976
3502.6,0.011256
3498.74,0.010828
3494.88,0.011019
3491.03,0.011358
3487.17,0.011711
3483.31,0.011452
3479.45,0.011753
3475.6,0.011896
3471.74,0.011834
3467.88,0.012029
3464.02,0.012394
3460.17,0.012453
3456.31,0.012583
3452.45,0.012892
3448.59,0.01311
3444.74,0.01332
3440.88,0.01348
3437.02,0.013531
3433.16,0.01378
3429.31,0.014052
3425.45,0.014725
3421.59,0.014996
3417.73,0.015331
3413.88,0.015798
3410.02,0.016106
3406.16,0.016744
3402.3,0.017263
3398.45,0.017852
3394.59,0.018551
3390.73,0.019054
3386.87,0.019682
3383.02,0.019982
3379.16,0.019979
3375.3,0.020148
3371.44,0.020108
3367.59,0.020207
3363.73,0.020251
3359.87,0.020227
3356.01,0.020049
3352.16,0.019883
3348.3,0.019465
3344.44,0.019699
3340.58,0.019852
3336.73,0.019737
3332.87,0.019778
3329.01,0.019623
3325.15,0.019718
3321.3,0.019385
3317.44,0.018961
3313.58,0.018741
3309.72,0.018506
3305.87,0.018203
3302.01,0.018083
3298.15,0.017614
3294.29,0.016955
3290.44,0.016737
3286.58,0.016451
3282.72,0.015906
3278.86,0.015787
3275.01,0.015213
3271.15,0.01459
3267.29,0.014351
3263.43,0.014177
3259.58,0.014005
3255.72,0.013558
3251.86,0.013153
3248.01,0.013142
3244.15,0.012951
3240.29,0.012704
3236.43,0.012647
3232.58,0.01229
3228.72,0.011732
3224.86,0.011605
3221,0.0116
3217.15,0.011339
3213.29,0.0111
3209.43,0.011137
3205.57,0.010868
3201.72,0.010866
3197.86,0.010761
3194,0.010663
3190.14,0.010516
3186.29,0.010606
3182.43,0.010496
3178.57,0.010101
3174.71,0.010082
3170.86,0.010134
3167,0.010281
3163.14,0.01009
3159.28,0.009953
3155.43,0.009965
3151.57,0.009809
3147.71,0.009848
3143.85,0.009739
3140,0.00962
3136.14,0.009982
3132.28,0.009766
3128.42,0.009667
3124.57,0.009668
3120.71,0.009513
3116.85,0.009371
3112.99,0.0094
3109.14,0.009689
3105.28,0.009636
3101.42,0.009856
3097.56,0.00977
3093.71,0.00975
3089.85,0.009887
3085.99,0.010166
3082.13,0.010139
3078.28,0.009966
3074.42,0.009966
3070.56,0.010495
3066.7,0.010581
3062.85,0.010391
3058.99,0.010348
3055.13,0.010133
3051.27,0.010067
3047.42,0.009893
3043.56,0.009784
3039.7,0.009986
3035.84,0.009815
3031.99,0.009859
3028.13,0.010146
3024.27,0.010303
3020.41,0.010537
3016.56,0.010835
3012.7,0.011374
3008.84,0.011844
3004.98,0.012244
3001.13,0.013177
2997.27,0.013994
2993.41,0.014621
2989.55,0.015579
2985.7,0.016879
2981.84,0.018222
2977.98,0.019668
2974.12,0.021211
2970.27,0.023629
2966.41,0.026421
2962.55,0.029146
2958.69,0.031466
2954.84,0.03288
2950.98,0.033065
2947.12,0.03262
2943.26,0.032253
2939.41,0.032648
2935.55,0.033197
2931.69,0.034069
2927.83,0.034925
2923.98,0.035147
2920.12,0.03456
2916.26,0.032948
2912.4,0.031045
2908.55,0.029468
2904.69,0.028334
2900.83,0.02728
2896.97,0.02629
2893.12,0.025539
2889.26,0.024621
2885.4,0.024083
2881.54,0.023726
2877.69,0.023827
2873.83,0.024604
2869.97,0.024995
2866.11,0.024696
2862.26,0.024215
2858.4,0.024343
2854.54,0.024474
2850.68,0.023741
2846.83,0.021634
2842.97,0.019146
2839.11,0.017196
2835.25,0.015518
2831.4,0.014298
2827.54,0.013572
2823.68,0.013189
2819.82,0.012717
2815.97,0.012535
2812.11,0.012231
2808.25,0.012037
2804.39,0.011839
2800.54,0.011785
2796.68,0.011681
2792.82,0.01152
2788.96,0.011448
2785.11,0.011243
2781.25,0.010985
2777.39,0.010926
2773.53,0.010678
2769.68,0.010641
2765.82,0.010515
2761.96,0.010373
2758.1,0.010423
2754.25,0.010426
2750.39,0.010455
2746.53,0.010367
2742.67,0.010369
2738.82,0.010413
2734.96,0.010477
2731.1,0.010374
2727.24,0.010133
2723.39,0.010081
2719.53,0.010137
2715.67,0.010085
2711.81,0.009973
2707.96,0.009831
2704.1,0.009875
2700.24,0.009657
2696.38,0.009741
2692.53,0.009786
2688.67,0.009596
2684.81,0.009635
2680.95,0.0097
2677.1,0.009592
2673.24,0.00965
2669.38,0.009706
2665.52,0.009602
2661.67,0.009377
2657.81,0.009398
2653.95,0.009318
2650.09,0.009305
2646.24,0.009231
2642.38,0.008949
2638.52,0.00889
2634.66,0.008702
2630.81,0.008541
2626.95,0.008447
2623.09,0.00849
2619.23,0.008311
2615.38,0.008345
2611.52,0.008252
2607.66,0.008205
2603.8,0.008126
2599.95,0.00819
2596.09,0.008086
2592.23,0.007753
2588.37,0.007643
2584.52,0.007338
2580.66,0.007767
2576.8,0.00795
2572.94,0.007979
2569.09,0.007793
2565.23,0.007696
2561.37,0.007682
2557.51,0.007877
2553.66,0.00774
2549.8,0.007281
2545.94,0.007287
2542.08,0.007253
2538.23,0.007305
2534.37,0.007392
2530.51,0.007502
2526.65,0.007424
2522.8,0.007081
2518.94,0.007342
2515.08,0.007349
2511.22,0.007624
2507.37,0.007236
2503.51,0.007098
2499.65,0.007183
2495.79,0.007122
2491.94,0.006951
2488.08,0.007304
2484.22,0.007377
2480.36,0.007252
2476.51,0.007329
2472.65,0.007092
2468.79,0.007331
2464.93,0.007265
2461.08,0.006736
2457.22,0.006994
2453.36,0.006936
2449.5,0.007138
2445.65,0.007027
2441.79,0.007014
2437.93,0.007031
2434.08,0.006895
2430.22,0.007132
2426.36,0.007029
2422.5,0.00709
2418.65,0.006936
2414.79,0.006868
2410.93,0.007196
2407.07,0.006801
2403.22,0.006897
2399.36,0.007158
2395.5,0.006949
2391.64,0.007
2387.79,0.007196
2383.93,0.007148
2380.07,0.007249
2376.21,0.007312
2372.36,0.007525
2368.5,0.00767
2364.64,0.007924
2360.78,0.008161
2356.93,0.007983
2353.07,0.007807
2349.21,0.007803
2345.35,0.007876
2341.5,0.007927
2337.64,0.007989
2333.78,0.008127
2329.92,0.007992
2326.07,0.00816
2322.21,0.008009
2318.35,0.00745
2314.49,0.007347
2310.64,0.007145
2306.78,0.007083
2302.92,0.006999
2299.06,0.006909
2295.21,0.006707
2291.35,0.006786
2287.49,0.007225
2283.63,0.006482
2279.78,0.0059
2275.92,0.00555
2272.06,0.005516
2268.2,0.005965
2264.35,0.005221
2260.49,0.005093
2256.63,0.005436
2252.77,0.004552
2248.92,0.004177
2245.06,0.004407
2241.2,0.00444
2237.34,0.004991
2233.49,0.00457
2229.63,0.003874
2225.77,0.003951
2221.91,0.003834
2218.06,0.004051
2214.2,0.004455
2210.34,0.003795
2206.48,0.003193
2202.63,0.003258
2198.77,0.003543
2194.91,0.003276
2191.05,0.003084
2187.2,0.003496
2183.34,0.003676
2179.48,0.003541
2175.62,0.003149
2171.77,0.00329
2167.91,0.003171
2164.05,0.002603
2160.19,0.001927
2156.34,0.001774
2152.48,0.002251
2148.62,0.002567
2144.76,0.002432
2140.91,0.003091
2137.05,0.003374
2133.19,0.00418
2129.33,0.003929
2125.48,0.004384
2121.62,0.004794
2117.76,0.004486
2113.9,0.004613
2110.05,0.003876
2106.19,0.003741
2102.33,0.004649
2098.47,0.004776
2094.62,0.004104
2090.76,0.004415
2086.9,0.004758
2083.04,0.004232
2079.19,0.004595
2075.33,0.003971
2071.47,0.003711
2067.61,0.003946
2063.76,0.004085
2059.9,0.003333
2056.04,0.003816
2052.18,0.00365
2048.33,0.003137
2044.47,0.002107
2040.61,0.002689
2036.75,0.002794
2032.9,0.002126
2029.04,0.001778
2025.18,0.002133
2021.32,0.001536
2017.47,0.002448
2013.61,0.002619
2009.75,0.002642
2005.89,0.002799
2002.04,0.003253
1998.18,0.00275
1994.32,0.002565
1990.46,0.002805
1986.61,0.00276
1982.75,0.002608
1978.89,0.002922
1975.03,0.003137
1971.18,0.002108
1967.32,0.002876
1963.46,0.003083
1959.6,0.003474
1955.75,0.003242
1951.89,0.003106
1948.03,0.003917
1944.17,0.003537
1940.32,0.00397
1936.46,0.004729
1932.6,0.003923
1928.74,0.0041
1924.89,0.004792
1921.03,0.004761
1917.17,0.004743
1913.31,0.00465
1909.46,0.004733
1905.6,0.004894
1901.74,0.005232
1897.88,0.005154
1894.03,0.005079
1890.17,0.005317
1886.31,0.004979
1882.45,0.005234
1878.6,0.005368
1874.74,0.005555
1870.88,0.005458
1867.02,0.005228
1863.17,0.005442
1859.31,0.00578
1855.45,0.005834
1851.59,0.005844
1847.74,0.005725
1843.88,0.00604
1840.02,0.00596
1836.16,0.005578
1832.31,0.005724
1828.45,0.006118
1824.59,0.006101
1820.73,0.006116
1816.88,0.006223
1813.02,0.006439
1809.16,0.006543
1805.3,0.006697
1801.45,0.006736
1797.59,0.006855
1793.73,0.007
1789.87,0.007078
1786.02,0.007253
1782.16,0.007358
1778.3,0.007627
1774.44,0.00774
1770.59,0.008192
1766.73,0.008836
1762.87,0.009588
1759.01,0.010931
1755.16,0.013027
1751.3,0.015933
1747.44,0.02025
1743.58,0.026245
1739.73,0.034117
1735.87,0.042303
1732.01,0.050075
1728.15,0.05677
1724.3,0.062462
1720.44,0.066988
1716.58,0.071002
1712.72,0.074444
1708.87,0.077734
1705.01,0.081167
1701.15,0.084015
1697.29,0.084927
1693.44,0.082852
1689.58,0.07744
1685.72,0.069373
1681.86,0.059639
1678.01,0.051378
1674.15,0.044353
1670.29,0.039121
1666.43,0.03532
1662.58,0.032668
1658.72,0.030714
1654.86,0.029288
1651,0.027897
1647.15,0.027126
1643.29,0.027143
1639.43,0.028195
1635.57,0.027918
1631.72,0.02633
1627.86,0.024699
1624,0.023069
1620.15,0.021642
1616.29,0.020483
1612.43,0.019501
1608.57,0.018724
1604.72,0.018223
1600.86,0.01778
1597,0.017476
1593.14,0.017277
1589.29,0.017022
1585.43,0.017099
1581.57,0.01738
1577.71,0.017957
1573.86,0.019145
1570,0.020938
1566.14,0.023304
1562.28,0.026586
1558.43,0.030833
1554.57,0.035237
1550.71,0.039704
1546.85,0.044218
1543,0.048451
1539.14,0.052237
1535.28,0.054815
1531.42,0.056258
1527.57,0.056608
1523.71,0.055499
1519.85,0.052913
1515.99,0.049092
1512.14,0.044199
1508.28,0.038974
1504.42,0.033698
1500.56,0.029857
1496.71,0.02795
1492.85,0.02833
1488.99,0.029852
1485.13,0.031211
1481.28,0.032564
1477.42,0.034579
1473.56,0.036556
1469.7,0.038369
1465.85,0.040241
1461.99,0.042193
1458.13,0.044338
1454.27,0.045835
1450.42,0.04602
1446.56,0.044879
1442.7,0.042878
1438.84,0.040927
1434.99,0.03792
1431.13,0.033969
1427.27,0.030553
1423.41,0.028926
1419.56,0.02881
1415.7,0.029096
1411.84,0.029572
1407.98,0.029979
1404.13,0.029988
1400.27,0.029411
1396.41,0.029582
1392.55,0.031526
1388.7,0.033308
1384.84,0.033757
1380.98,0.034171
1377.12,0.034281
1373.27,0.033993
1369.41,0.034972
1365.55,0.034806
1361.69,0.031786
1357.84,0.029177
1353.98,0.027815
1350.12,0.027464
1346.26,0.027925
1342.41,0.028879
1338.55,0.029259
1334.69,0.029495
1330.83,0.030307
1326.98,0.03225
1323.12,0.034485
1319.26,0.035453
1315.4,0.035313
1311.55,0.035486
1307.69,0.036827
1303.83,0.039147
1299.97,0.041565
1296.12,0.042382
1292.26,0.041547
1288.4,0.041414
1284.54,0.043209
1280.69,0.046519
1276.83,0.050335
1272.97,0.05369
1269.11,0.056774
1265.26,0.060009
1261.4,0.063614
1257.54,0.067297
1253.68,0.070894
1249.83,0.074227
1245.97,0.077085
1242.11,0.079075
1238.25,0.079694
1234.4,0.078658
1230.54,0.075768
1226.68,0.071097
1222.82,0.065546
1218.97,0.059595
1215.11,0.054344
1211.25,0.050452
1207.39,0.048788
1203.54,0.049115
1199.68,0.050828
1195.82,0.052722
1191.96,0.054743
1188.11,0.057645
1184.25,0.061409
1180.39,0.065808
1176.53,0.070503
1172.68,0.074962
1168.82,0.07887
1164.96,0.081662
1161.1,0.083115
1157.25,0.083848
1153.39,0.084931
1149.53,0.086953
1145.67,0.089239
1141.82,0.090856
1137.96,0.091213
1134.1,0.090461
1130.24,0.088516
1126.39,0.085983
1122.53,0.08404
1118.67,0.082551
1114.81,0.0811
1110.96,0.078719
1107.1,0.076628
1103.24,0.074554
1099.38,0.07225
1095.53,0.06941
1091.67,0.065993
1087.81,0.063596
1083.95,0.06198
1080.1,0.060377
1076.24,0.059082
1072.38,0.058527
1068.52,0.05892
1064.67,0.060197
1060.81,0.062388
1056.95,0.065284
1053.09,0.067796
1049.24,0.068439
1045.38,0.067478
1041.52,0.06585
1037.66,0.064425
1033.81,0.062877
1029.95,0.060926
1026.09,0.058347
1022.23,0.055787
1018.38,0.053619
1014.52,0.051829
1010.66,0.050831
1006.8,0.050605
1002.95,0.050817
999.089,0.051309
995.232,0.051828
991.374,0.052104
987.517,0.05168
983.659,0.051037
979.802,0.050338
975.945,0.050166
972.087,0.051056
968.23,0.05243
964.372,0.053221
960.515,0.05376
956.657,0.054185
952.8,0.054739
948.942,0.05552
945.085,0.055908
941.227,0.055572
937.37,0.054357
933.512,0.052223
929.655,0.049808
925.797,0.047506
921.94,0.045889
918.082,0.044517
914.225,0.042848
910.367,0.040994
906.51,0.039469
902.652,0.038558
898.795,0.038335
894.937,0.038887
891.08,0.040068
887.222,0.041159
883.365,0.041591
879.507,0.041924
875.65,0.041577
871.792,0.04071
867.935,0.04041
864.077,0.040194
860.22,0.039748
856.362,0.03954
852.505,0.038977
848.647,0.038344
844.79,0.037258
840.932,0.03617
837.075,0.035499
833.217,0.034628
829.36,0.033982
825.502,0.034321
821.645,0.035933
817.787,0.038747
813.93,0.03983
810.073,0.037728
806.215,0.034812
802.358,0.032786
798.5,0.031767
794.643,0.031109
790.785,0.03147
786.928,0.0339
783.07,0.038798
779.213,0.045217
775.355,0.049826
771.498,0.049337
767.64,0.044743
763.783,0.040382
759.925,0.039082
756.068,0.03976
752.21,0.041928
748.3527,0.044949
744.495,0.043632
740.638,0.039623
736.78,0.037821
732.923,0.037481
729.065,0.037955
725.208,0.038116
721.35,0.038433
717.493,0.03915
713.635,0.039535
709.778,0.039664
705.92,0.040184
702.063,0.041326
698.205,0.042127
694.348,0.042081
690.49,0.041932
686.633,0.042372
682.775,0.042545
678.918,0.042684
675.06,0.043367
671.203,0.044659
667.345,0.046006
663.488,0.047416
659.63,0.049327
655.773,0.050887
651.915,0.052071
648.058,0.052239
644.201,0.052646
640.343,0.05276
636.486,0.052915
632.628,0.05303
628.771,0.053652
624.913,0.053877
621.056,0.054445
617.198,0.054516
613.341,0.054857
609.483,0.05567
605.626,0.05645
601.768,0.056771
597.911,0.057349
594.053,0.057235
590.196,0.056613
586.338,0.056531
582.481,0.056607
578.623,0.0563
574.766,0.056309
570.908,0.05712
567.051,0.057598
563.193,0.057705
559.336,0.057124
555.478,0.056797
551.621,0.056166
547.763,0.05542
543.906,0.056358
540.048,0.055576
536.191,0.056181
532.333,0.056866
528.476,0.057254
524.618,0.05834
520.7609,0.058858
516.903,0.058772
513.046,0.059148
509.188,0.058938
505.331,0.058296
501.473,0.058074
497.616,0.05738
493.758,0.057364
489.901,0.058298
486.044,0.059668
482.186,0.060169
478.329,0.061804
474.471,0.062369
470.614,0.063034
466.756,0.064219
462.899,0.063016
459.041,0.062286
455.184,0.061282
451.326,0.059282
447.469,0.058931
443.611,0.05832
439.754,0.05623
435.896,0.05532
432.039,0.057705
428.181,0.057332
424.324,0.054738
420.466,0.053984
416.609,0.054293
412.751,0.05373
408.894,0.054316
405.036,0.05484
401.179,0.058331
399.25,0.058907