File: converter_xlsx_FTIR/group1.xlsx-Silicone.csv
3996.36,0.002393
3992.5,0.002044
3988.64,0.001819
3984.79,0.001892
3980.93,0.00215
3977.07,0.002426
3973.21,0.002351
3969.36,0.002364
3965.5,0.002408
3961.64,0.0024
3957.78,0.002484
3953.93,0.00243
3950.07,0.00212
3946.21,0.002109
3942.35,0.002142
3938.5,0.002053
3934.64,0.002181
3930.78,0.002075
3926.92,0.002061
3923.07,0.001818
3919.21,0.001793
3915.35,0.001984
3911.49,0.001771
3907.64,0.001863
3903.78,0.00201
3899.92,0.002361
3896.06,0.002073
3892.21,0.002139
3888.35,0.002043
3884.49,0.002101
3880.63,0.002149
3876.78,0.001978
3872.92,0.002212
3869.06,0.002193
3865.2,0.002124
3861.35,0.002154
3857.49,0.00229
3853.63,0.002504
3849.77,0.001922
3845.92,0.002112
3842.06,0.002204
3838.2,0.002471
3834.34,0.002545
3830.49,0.00242
3826.63,0.002162
3822.77,0.002223
3818.91,0.002353
3815.06,0.002214
3811.2,0.002288
3807.34,0.002291
3803.48,0.002251
3799.63,0.002283
3795.77,0.002278
3791.91,0.002416
3788.05,0.002196
3784.2,0.002649
3780.34,0.002849
3776.48,0.003027
3772.62,0.002898
3768.77,0.003132
3764.91,0.003155
3761.05,0.002706
3757.19,0.002454
3753.34,0.003343
3749.48,0.003283
3745.62,0.003137
3741.76,0.00293
3737.91,0.002937
3734.05,0.002755
3730.19,0.002698
3726.33,0.003231
3722.48,0.003121
3718.62,0.003208
3714.76,0.003701
3710.9,0.003816
3707.05,0.003519
3703.19,0.003353
3699.33,0.003774
3695.47,0.004144
3691.62,0.004089
3687.76,0.003849
3683.9,0.004063
3680.04,0.004406
3676.19,0.004439
3672.33,0.004951
3668.47,0.004923
3664.61,0.00507
3660.76,0.005198
3656.9,0.004961
3653.04,0.005276
3649.18,0.005675
3645.33,0.00558
3641.47,0.005844
3637.61,0.005719
3633.75,0.005952
3629.9,0.006116
3626.04,0.005837
3622.18,0.006227
3618.32,0.006169
3614.47,0.006745
3610.61,0.006999
3606.75,0.006884
3602.89,0.006383
3599.04,0.006511
3595.18,0.006587
3591.32,0.006856
3587.46,0.007364
3583.61,0.007009
3579.749,0.007195
3575.89,0.00742
3572.03,0.007814
3568.18,0.007961
3564.32,0.008052
3560.46,0.008193
3556.6,0.008373
3552.75,0.008878
3548.89,0.008593
3545.03,0.008347
3541.17,0.008931
3537.32,0.00919
3533.46,0.009343
3529.6,0.009209
3525.74,0.009483
3521.89,0.009954
3518.03,0.01007
3514.17,0.009862
3510.31,0.009959
3506.46,0.010407
3502.6,0.0108
3498.74,0.010722
3494.88,0.011061
3491.03,0.011348
3487.17,0.011411
3483.31,0.011161
3479.45,0.011479
3475.6,0.011724
3471.74,0.011918
3467.88,0.01216
3464.02,0.012645
3460.17,0.012718
3456.31,0.012693
3452.45,0.01275
3448.59,0.012891
3444.74,0.013202
3440.88,0.013374
3437.02,0.013196
3433.16,0.013178
3429.31,0.013088
3425.45,0.013664
3421.59,0.013816
3417.73,0.013882
3413.88,0.013914
3410.02,0.013852
3406.16,0.013762
3402.3,0.013886
3398.45,0.013973
3394.59,0.014033
3390.73,0.014203
3386.87,0.014327
3383.02,0.014417
3379.16,0.014486
3375.3,0.014439
3371.44,0.014433
3367.59,0.014596
3363.73,0.014572
3359.87,0.014355
3356.01,0.014554
3352.16,0.014507
3348.3,0.014433
3344.44,0.014768
3340.58,0.014632
3336.73,0.014839
3332.87,0.014961
3329.01,0.015068
3325.15,0.015218
3321.3,0.015204
3317.44,0.015112
3313.58,0.015108
3309.72,0.015119
3305.87,0.015196
3302.01,0.015567
3298.15,0.015798
3294.29,0.015796
3290.44,0.015663
3286.58,0.015579
3282.72,0.015538
3278.86,0.015606
3275.01,0.015626
3271.15,0.015377
3267.29,0.015378
3263.43,0.015219
3259.58,0.015121
3255.72,0.014609
3251.86,0.01454
3248.01,0.014796
3244.15,0.014745
3240.29,0.014623
3236.43,0.014557
3232.58,0.014213
3228.72,0.013849
3224.86,0.013809
3221,0.01394
3217.15,0.013895
3213.29,0.013544
3209.43,0.01343
3205.57,0.01337
3201.72,0.013117
3197.86,0.012967
3194,0.012901
3190.14,0.013105
3186.29,0.013098
3182.43,0.012687
3178.57,0.012348
3174.71,0.012365
3170.86,0.01219
3167,0.012193
3163.14,0.012175
3159.28,0.01202
3155.43,0.011661
3151.57,0.011711
3147.71,0.011514
3143.85,0.011501
3140,0.011311
3136.14,0.011451
3132.28,0.011248
3128.42,0.011202
3124.57,0.011515
3120.71,0.011333
3116.85,0.011127
3112.99,0.011244
3109.14,0.011233
3105.28,0.011192
3101.42,0.011228
3097.56,0.010833
3093.71,0.010659
3089.85,0.010737
3085.99,0.011037
3082.13,0.01096
3078.28,0.010722
3074.42,0.010744
3070.56,0.010862
3066.7,0.010689
3062.85,0.010651
3058.99,0.010528
3055.13,0.010478
3051.27,0.01042
3047.42,0.010267
3043.56,0.010309
3039.7,0.010398
3035.84,0.010008
3031.99,0.010024
3028.13,0.009892
3024.27,0.009867
3020.41,0.009776
3016.56,0.009906
3012.7,0.010168
3008.84,0.010138
3004.98,0.010224
3001.13,0.010845
2997.27,0.011883
2993.41,0.012835
2989.55,0.014058
2985.7,0.016756
2981.84,0.021051
2977.98,0.028162
2974.12,0.040238
2970.27,0.060014
2966.41,0.084333
2962.55,0.097071
2958.69,0.082913
2954.84,0.056889
2950.98,0.037965
2947.12,0.027066
2943.26,0.021213
2939.41,0.018041
2935.55,0.015578
2931.69,0.013943
2927.83,0.012881
2923.98,0.012431
2920.12,0.01283
2916.26,0.014055
2912.4,0.016037
2908.55,0.018286
2904.69,0.019009
2900.83,0.017272
2896.97,0.014904
2893.12,0.013002
2889.26,0.011546
2885.4,0.010974
2881.54,0.010304
2877.69,0.009934
2873.83,0.009594
2869.97,0.008976
2866.11,0.008577
2862.26,0.008054
2858.4,0.007746
2854.54,0.007391
2850.68,0.007388
2846.83,0.00738
2842.97,0.007422
2839.11,0.007251
2835.25,0.007141
2831.4,0.006991
2827.54,0.006921
2823.68,0.007072
2819.82,0.006967
2815.97,0.007122
2812.11,0.007127
2808.25,0.007054
2804.39,0.006918
2800.54,0.006926
2796.68,0.00692
2792.82,0.006682
2788.96,0.00642
2785.11,0.005997
2781.25,0.005655
2777.39,0.005303
2773.53,0.004981
2769.68,0.004976
2765.82,0.004742
2761.96,0.004405
2758.1,0.004436
2754.25,0.004574
2750.39,0.004496
2746.53,0.004306
2742.67,0.004194
2738.82,0.004227
2734.96,0.004288
2731.1,0.004192
2727.24,0.004042
2723.39,0.003875
2719.53,0.00406
2715.67,0.00386
2711.81,0.003726
2707.96,0.003842
2704.1,0.003868
2700.24,0.003621
2696.38,0.003607
2692.53,0.003677
2688.67,0.00371
2684.81,0.003688
2680.95,0.003592
2677.1,0.00364
2673.24,0.003819
2669.38,0.003928
2665.52,0.004006
2661.67,0.003952
2657.81,0.003968
2653.95,0.003889
2650.09,0.00367
2646.24,0.003505
2642.38,0.003245
2638.52,0.003265
2634.66,0.003126
2630.81,0.002902
2626.95,0.002828
2623.09,0.003051
2619.23,0.003139
2615.38,0.002928
2611.52,0.002725
2607.66,0.002625
2603.8,0.002577
2599.95,0.002542
2596.09,0.002494
2592.23,0.002447
2588.37,0.002508
2584.52,0.002201
2580.66,0.002361
2576.8,0.002315
2572.94,0.002363
2569.09,0.002373
2565.23,0.002088
2561.37,0.002226
2557.51,0.00246
2553.66,0.002331
2549.8,0.001881
2545.94,0.001969
2542.08,0.002058
2538.23,0.002172
2534.37,0.002372
2530.51,0.002282
2526.65,0.002564
2522.8,0.002579
2518.94,0.002741
2515.08,0.002536
2511.22,0.002514
2507.37,0.002738
2503.51,0.002601
2499.65,0.002826
2495.79,0.002438
2491.94,0.001897
2488.08,0.002007
2484.22,0.001997
2480.36,0.001862
2476.51,0.001846
2472.65,0.002016
2468.79,0.002001
2464.93,0.001767
2461.08,0.001548
2457.22,0.001691
2453.36,0.001716
2449.5,0.001732
2445.65,0.001679
2441.79,0.00148
2437.93,0.001691
2434.08,0.001737
2430.22,0.001887
2426.36,0.00183
2422.5,0.001908
2418.65,0.00143
2414.79,0.001327
2410.93,0.001447
2407.07,0.001639
2403.22,0.00154
2399.36,0.001526
2395.5,0.001368
2391.64,0.0015
2387.79,0.001646
2383.93,0.001527
2380.07,0.001496
2376.21,0.001766
2372.36,0.002122
2368.5,0.002569
2364.64,0.002886
2360.78,0.002861
2356.93,0.002552
2353.07,0.002483
2349.21,0.00206
2345.35,0.002251
2341.5,0.002607
2337.64,0.002736
2333.78,0.002643
2329.92,0.002592
2326.07,0.002978
2322.21,0.002861
2318.35,0.00221
2314.49,0.002067
2310.64,0.001823
2306.78,0.001763
2302.92,0.001718
2299.06,0.00162
2295.21,0.001837
2291.35,0.001965
2287.49,0.001732
2283.63,0.001388
2279.78,0.001124
2275.92,0.000979
2272.06,0.001182
2268.2,0.00091
2264.35,0.000694
2260.49,0.000953
2256.63,0.001098
2252.77,0.000272
2248.92,0.00049
2245.06,0.000404
2241.2,0.000178
2237.34,0.000727
2233.49,0.000276
2229.63,-0.000278
2225.77,-0.000339
2221.91,-0.000365
2218.06,-0.000314
2214.2,-4.2e-05
2210.34,-0.00031
2206.48,-0.00023
2202.63,-0.000917
2198.77,-0.000703
2194.91,5.3e-05
2191.05,-0.000611
2187.2,-0.000534
2183.34,-0.000148
2179.48,-0.000209
2175.62,-0.000607
2171.77,-0.001333
2167.91,-0.000701
2164.05,-0.000793
2160.19,-0.002795
2156.34,-0.002765
2152.48,-0.002157
2148.62,-0.00144
2144.76,-0.001415
2140.91,-0.001691
2137.05,-0.002081
2133.19,-0.001484
2129.33,-0.000985
2125.48,-0.001269
2121.62,-0.000761
2117.76,-0.001006
2113.9,-0.000599
2110.05,-0.001163
2106.19,-0.001182
2102.33,-0.001023
2098.47,-0.00121
2094.62,-0.001388
2090.76,-0.001395
2086.9,-0.000689
2083.04,-0.001012
2079.19,-0.000949
2075.33,-0.001336
2071.47,-0.001575
2067.61,-0.001742
2063.76,-0.00194
2059.9,-0.001976
2056.04,-0.001325
2052.18,-0.002016
2048.33,-0.002641
2044.47,-0.002985
2040.61,-0.003177
2036.75,-0.003314
2032.9,-0.003486
2029.04,-0.002828
2025.18,-0.00352
2021.32,-0.003857
2017.47,-0.004005
2013.61,-0.00356
2009.75,-0.003493
2005.89,-0.003138
2002.04,-0.002937
1998.18,-0.003427
1994.32,-0.003421
1990.46,-0.003291
1986.61,-0.002697
1982.75,-0.0027
1978.89,-0.003071
1975.03,-0.003032
1971.18,-0.003262
1967.32,-0.002151
1963.46,-0.001397
1959.6,-0.001402
1955.75,-0.000974
1951.89,-0.000394
1948.03,-0.000188
1944.17,-0.000108
1940.32,0.000105
1936.46,0.000243
1932.6,0.000294
1928.74,0.000304
1924.89,0.000937
1921.03,0.00081
1917.17,0.000972
1913.31,0.001019
1909.46,0.000997
1905.6,0.000987
1901.74,0.001207
1897.88,0.001497
1894.03,0.001532
1890.17,0.001834
1886.31,0.001764
1882.45,0.001912
1878.6,0.00194
1874.74,0.002169
1870.88,0.002112
1867.02,0.002061
1863.17,0.002252
1859.31,0.002512
1855.45,0.002354
1851.59,0.002359
1847.74,0.001999
1843.88,0.002484
1840.02,0.002382
1836.16,0.002251
1832.31,0.002385
1828.45,0.002552
1824.59,0.00247
1820.73,0.002572
1816.88,0.002784
1813.02,0.003037
1809.16,0.00321
1805.3,0.003301
1801.45,0.003439
1797.59,0.003721
1793.73,0.003894
1789.87,0.004048
1786.02,0.004065
1782.16,0.004097
1778.3,0.004326
1774.44,0.004375
1770.59,0.00441
1766.73,0.004497
1762.87,0.004446
1759.01,0.004519
1755.16,0.004611
1751.3,0.00468
1747.44,0.005021
1743.58,0.005324
1739.73,0.005818
1735.87,0.006375
1732.01,0.006695
1728.15,0.006764
1724.3,0.006678
1720.44,0.00663
1716.58,0.006729
1712.72,0.006857
1708.87,0.007041
1705.01,0.007416
1701.15,0.008244
1697.29,0.00917
1693.44,0.009893
1689.58,0.010668
1685.72,0.011736
1681.86,0.012546
1678.01,0.013339
1674.15,0.014256
1670.29,0.015172
1666.43,0.016242
1662.58,0.017536
1658.72,0.018736
1654.86,0.020041
1651,0.021035
1647.15,0.021473
1643.29,0.02135
1639.43,0.021376
1635.57,0.02125
1631.72,0.020891
1627.86,0.020656
1624,0.02037
1620.15,0.019921
1616.29,0.019525
1612.43,0.018998
1608.57,0.018558
1604.72,0.018273
1600.86,0.018078
1597,0.017883
1593.14,0.017594
1589.29,0.017141
1585.43,0.016799
1581.57,0.016453
1577.71,0.01605
1573.86,0.015655
1570,0.015472
1566.14,0.015232
1562.28,0.015341
1558.43,0.015913
1554.57,0.016324
1550.71,0.016706
1546.85,0.01704
1543,0.017155
1539.14,0.016917
1535.28,0.016585
1531.42,0.016181
1527.57,0.015719
1523.71,0.015461
1519.85,0.015249
1515.99,0.014907
1512.14,0.014298
1508.28,0.013885
1504.42,0.013326
1500.56,0.012712
1496.71,0.012527
1492.85,0.012372
1488.99,0.012481
1485.13,0.0126
1481.28,0.012681
1477.42,0.012797
1473.56,0.012983
1469.7,0.013265
1465.85,0.013642
1461.99,0.014237
1458.13,0.015642
1454.27,0.01728
1450.42,0.019138
1446.56,0.020516
1442.7,0.020156
1438.84,0.019041
1434.99,0.018254
1431.13,0.018352
1427.27,0.019839
1423.41,0.022914
1419.56,0.028132
1415.7,0.033599
1411.84,0.035342
1407.98,0.033586
1404.13,0.031886
1400.27,0.030951
1396.41,0.028067
1392.55,0.023572
1388.7,0.020243
1384.84,0.018238
1380.98,0.017
1377.12,0.016293
1373.27,0.015839
1369.41,0.015532
1365.55,0.015319
1361.69,0.015055
1357.84,0.014782
1353.98,0.014565
1350.12,0.014501
1346.26,0.014467
1342.41,0.01446
1338.55,0.014387
1334.69,0.01445
1330.83,0.014595
1326.98,0.014848
1323.12,0.01536
1319.26,0.015946
1315.4,0.016615
1311.55,0.017253
1307.69,0.018049
1303.83,0.018844
1299.97,0.019902
1296.12,0.021265
1292.26,0.0229
1288.4,0.025108
1284.54,0.028064
1280.69,0.032773
1276.83,0.040771
1272.97,0.056735
1269.11,0.096038
1265.26,0.184578
1261.4,0.31421
1257.54,0.378761
1253.68,0.289966
1249.83,0.179571
1245.97,0.124603
1242.11,0.103142
1238.25,0.095665
1234.4,0.093337
1230.54,0.093111
1226.68,0.093758
1222.82,0.094781
1218.97,0.095978
1215.11,0.097446
1211.25,0.098799
1207.39,0.100225
1203.54,0.101598
1199.68,0.103302
1195.82,0.104963
1191.96,0.106763
1188.11,0.108754
1184.25,0.111001
1180.39,0.113474
1176.53,0.116009
1172.68,0.11864
1168.82,0.121407
1164.96,0.12423
1161.1,0.126991
1157.25,0.129873
1153.39,0.132937
1149.53,0.1362
1145.67,0.13996
1141.82,0.144652
1137.96,0.150283
1134.1,0.156933
1130.24,0.164812
1126.39,0.174873
1122.53,0.188127
1118.67,0.205066
1114.81,0.226969
1110.96,0.254244
1107.1,0.287245
1103.24,0.325455
1099.38,0.366492
1095.53,0.408098
1091.67,0.446381
1087.81,0.478922
1083.95,0.504024
1080.1,0.521977
1076.24,0.533368
1072.38,0.539772
1068.52,0.542454
1064.67,0.542933
1060.81,0.541843
1056.95,0.540233
1053.09,0.538733
1049.24,0.539491
1045.38,0.541735
1041.52,0.546131
1037.66,0.55445
1033.81,0.567383
1029.95,0.586933
1026.09,0.614262
1022.23,0.652748
1018.38,0.70413
1014.52,0.764785
1010.66,0.81712
1006.8,0.839168
1002.95,0.820569
999.089,0.766833
995.232,0.689058
991.374,0.601245
987.517,0.513866
983.659,0.435299
979.802,0.368934
975.945,0.315014
972.087,0.272372
968.23,0.23808
964.372,0.209615
960.515,0.185821
956.657,0.165297
952.8,0.147402
948.942,0.13186
945.085,0.118566
941.227,0.10713
937.37,0.097451
933.512,0.089286
929.655,0.08259
925.797,0.077206
921.94,0.07355
918.082,0.071862
914.225,0.071769
910.367,0.071536
906.51,0.070625
902.652,0.070772
898.795,0.072664
894.937,0.076641
891.08,0.083098
887.222,0.093472
883.365,0.108365
879.507,0.126974
875.65,0.144922
871.792,0.159113
867.935,0.169598
864.077,0.173938
860.22,0.167867
856.362,0.154335
852.505,0.143099
848.647,0.140499
844.79,0.143495
840.932,0.144966
837.075,0.145556
833.217,0.153186
829.36,0.174331
825.502,0.216182
821.645,0.274172
817.787,0.328647
813.93,0.370261
810.073,0.416008
806.215,0.480159
802.358,0.566735
798.5,0.663421
794.643,0.756542
790.785,0.836151
786.928,0.884267
783.07,0.885416
779.213,0.846167
775.355,0.771706
771.498,0.676657
767.64,0.580779
763.783,0.498168
759.925,0.438027
756.068,0.395473
752.21,0.356623
748.3527,0.31777
744.495,0.286232
740.638,0.261403
736.78,0.238338
732.923,0.217578
729.065,0.20114
725.208,0.187926
721.35,0.17742
717.493,0.172383
713.635,0.17901
709.778,0.201677
705.92,0.227766
702.063,0.241095
698.205,0.242224
694.348,0.239321
690.49,0.239356
686.633,0.243157
682.775,0.239679
678.918,0.228509
675.06,0.217978
671.203,0.21305
667.345,0.214917
663.488,0.225548
659.63,0.224821
655.773,0.178979
651.915,0.143337
648.058,0.128444
644.201,0.121416
640.343,0.116977
636.486,0.114286
632.628,0.113252
628.771,0.113111
624.913,0.111258
621.056,0.110263
617.198,0.108615
613.341,0.107906
609.483,0.107579
605.626,0.107351
601.768,0.107458
597.911,0.10802
594.053,0.108692
590.196,0.10931
586.338,0.110911
582.481,0.112532
578.623,0.114534
574.766,0.116315
570.908,0.118363
567.051,0.120241
563.193,0.121821
559.336,0.123371
555.478,0.124845
551.621,0.126255
547.763,0.12617
543.906,0.127544
540.048,0.127981
536.191,0.128693
532.333,0.129876
528.476,0.130445
524.618,0.131574
520.7609,0.133539
516.903,0.136237
513.046,0.142353
509.188,0.149997
505.331,0.159985
501.473,0.172864
497.616,0.189004
493.758,0.209882
489.901,0.234542
486.044,0.263386
482.186,0.294648
478.329,0.324095
474.471,0.349839
470.614,0.369801
466.756,0.384057
462.899,0.389416
459.041,0.383466
455.184,0.373748
451.326,0.357121
447.469,0.336864
443.611,0.312251
439.754,0.287977
435.896,0.262601
432.039,0.240795
428.181,0.221456
424.324,0.206464
420.466,0.201175
416.609,0.222247
412.751,0.262163
408.894,0.309202
405.036,0.358305
401.179,0.395246
399.25,0.413508