File: converter_xlsx_FTIR/group2.xlsx-GIgi nylon8.csv
3996.36,0.105818,Unnamed: 2,Unnamed: 3,Unnamed: 4,Unnamed: 5,Unnamed: 6
3994.43,0.105396,,,,,
3992.5,0.105251,,,,,
3990.57,0.105295,,,,,
3988.64,0.105344,,,,,
3986.714,0.105281,,,,,
3984.79,0.105087,,,,,
3982.86,0.105059,,,,,
3980.93,0.105337,,,,,
3979,0.105574,,,,,
3977.07,0.105545,,,,,
3975.14,0.105407,,,,,
3973.21,0.105353,,,,,
3971.28,0.105408,,,,,
3969.36,0.105462,,,,,
3967.43,0.105402,,,,,
3965.5,0.105342,,,,,
3963.57,0.105397,,,,,
3961.64,0.105325,,,,,
3959.71,0.105097,,,,,
3957.78,0.104982,,,,,
3955.85,0.104939,,,,,
3953.93,0.104885,,,,,
3952,0.104784,,,,,
3950.07,0.104609,,,,,
3948.14,0.104541,,,,,
3946.21,0.1046,,,,,
3944.28,0.104688,,,,,
3942.35,0.104853,,,,,
3940.42,0.105114,,,,,
3938.5,0.105293,,,,,
3936.57,0.105121,,,,,
3934.64,0.104718,,,,,
3932.71,0.104408,,,,,
3930.78,0.104202,,,,,
3928.85,0.104142,,,,,
3926.92,0.10431,,,,,
3924.99,0.104496,,,,,
3923.07,0.104547,,,,,
3921.14,0.104473,,,,,
3919.21,0.104358,,,,,
3917.28,0.104437,,,,,
3915.35,0.104688,,,,,
3913.42,0.104819,,,,,
3911.49,0.104805,,,,,
3909.56,0.104783,,,,,red = nylon8
3907.64,0.104759,,,,,
3903.78,0.104709,,,,,
3899.92,0.104971,,,,,
3896.06,0.104442,,,,,
3892.21,0.10423,,,,,
3888.35,0.104377,,,,,
3884.49,0.104199,,,,,
3880.63,0.10419,,,,,
3876.78,0.104426,,,,,
3872.92,0.10458,,,,,
3869.06,0.104043,,,,,
3865.2,0.104036,,,,,
3861.35,0.104025,,,,,
3857.49,0.104289,,,,,
3853.63,0.104241,,,,,
3849.77,0.103815,,,,,
3845.92,0.103685,,,,,
3842.06,0.103702,,,,,
3838.2,0.103462,,,,,
3834.34,0.103577,,,,,
3830.49,0.103385,,,,,
3826.63,0.103488,,,,,
3822.77,0.103371,,,,,
3818.91,0.103269,,,,,
3815.06,0.103366,,,,,
3811.2,0.103156,,,,,
3807.34,0.103096,,,,,
3803.48,0.103159,,,,,
3799.63,0.103068,,,,,
3795.77,0.102489,,,,,
3791.91,0.102347,,,,,
3788.05,0.102748,,,,,
3784.2,0.10276,,,,,
3780.34,0.103052,,,,,
3776.48,0.10303,,,,,
3772.62,0.102522,,,,,
3768.77,0.10244,,,,,
3764.91,0.102172,,,,,
3761.05,0.102433,,,,,
3757.19,0.102507,,,,,
3753.34,0.102409,,,,,
3749.48,0.102016,,,,,
3745.62,0.102151,,,,,
3741.76,0.101914,,,,,
3737.91,0.101679,,,,,
3734.05,0.101841,,,,,
3730.19,0.101701,,,,,
3726.33,0.10173,,,,,
3722.48,0.101527,,,,,
3718.62,0.101276,,,,,
3714.76,0.101408,,,,,
3710.9,0.101047,,,,,
3707.05,0.100619,,,,,
3703.19,0.100704,,,,,
3699.33,0.100901,,,,,
3695.47,0.101057,,,,,
3691.62,0.1005,,,,,
3687.76,0.100056,,,,,
3683.9,0.099475,,,,,
3680.04,0.099453,,,,,
3676.19,0.099689,,,,,
3672.33,0.099459,,,,,
3668.47,0.099429,,,,,
3664.61,0.099511,,,,,
3660.76,0.099277,,,,,
3656.9,0.098834,,,,,
3653.04,0.098409,,,,,
3649.18,0.098758,,,,,
3645.33,0.098453,,,,,
3641.47,0.098525,,,,,
3637.61,0.099002,,,,,
3633.75,0.09856,,,,,
3629.9,0.098293,,,,,
3626.04,0.097818,,,,,
3622.18,0.097791,,,,,
3618.32,0.098005,,,,,
3614.47,0.097938,,,,,
3610.61,0.098177,,,,,
3606.75,0.098123,,,,,
3602.89,0.09797,,,,,
3599.04,0.097843,,,,,
3595.18,0.097838,,,,,
3591.32,0.097468,,,,,
3587.46,0.097192,,,,,
3583.61,0.097097,,,,,
3579.749,0.097161,,,,,
3575.89,0.096995,,,,,
3572.03,0.096766,,,,,
3568.18,0.096252,,,,,
3564.32,0.096041,,,,,
3560.46,0.095921,,,,,
3556.6,0.095658,,,,,
3552.75,0.095759,,,,,
3548.89,0.09551,,,,,
3545.03,0.095304,,,,,
3541.17,0.095426,,,,,
3537.32,0.095601,,,,,
3533.46,0.095405,,,,,
3529.6,0.095119,,,,,
3525.74,0.095322,,,,,
3521.89,0.095496,,,,,
3518.03,0.095467,,,,,
3514.17,0.095088,,,,,
3510.31,0.094634,,,,,
3506.46,0.094821,,,,,
3502.6,0.094813,,,,,
3498.74,0.094737,,,,,
3494.88,0.094856,,,,,
3491.03,0.094588,,,,,
3487.17,0.093988,,,,,
3483.31,0.093864,,,,,
3479.45,0.093326,,,,,
3475.6,0.093189,,,,,
3471.74,0.092789,,,,,
3467.88,0.092584,,,,,
3464.02,0.092455,,,,,
3460.17,0.092192,,,,,
3456.31,0.091725,,,,,
3452.45,0.091298,,,,,
3448.59,0.091257,,,,,
3444.74,0.091046,,,,,
3440.88,0.090959,,,,,
3437.02,0.090786,,,,,
3433.16,0.090717,,,,,
3429.31,0.090836,,,,,
3425.45,0.090974,,,,,
3421.59,0.091256,,,,,
3417.73,0.091165,,,,,
3413.88,0.09148,,,,,
3410.02,0.09178,,,,,
3406.16,0.092033,,,,,
3402.3,0.092533,,,,,
3398.45,0.092205,,,,,
3394.59,0.0923,,,,,
3390.73,0.092428,,,,,
3386.87,0.092152,,,,,
3383.02,0.092316,,,,,
3379.16,0.092605,,,,,
3375.3,0.092671,,,,,
3371.44,0.092716,,,,,
3367.59,0.093002,,,,,
3363.73,0.092682,,,,,
3359.87,0.092509,,,,,
3356.01,0.09239,,,,,
3352.16,0.092335,,,,,
3348.3,0.092584,,,,,
3344.44,0.092541,,,,,
3340.58,0.092526,,,,,
3336.73,0.092668,,,,,
3332.87,0.092252,,,,,
3329.01,0.091844,,,,,
3325.15,0.09129,,,,,
3321.3,0.0916,,,,,
3317.44,0.091337,,,,,
3313.58,0.090977,,,,,
3309.72,0.09088,,,,,
3305.87,0.090995,,,,,
3302.01,0.091043,,,,,
3298.15,0.091043,,,,,
3294.29,0.090754,,,,,
3290.44,0.091184,,,,,
3286.58,0.091634,,,,,
3282.72,0.091749,,,,,
3278.86,0.092032,,,,,
3275.01,0.092319,,,,,
3271.15,0.092273,,,,,
3267.29,0.092793,,,,,
3263.43,0.092868,,,,,
3259.58,0.093429,,,,,
3255.72,0.094017,,,,,
3251.86,0.09365,,,,,
3248.01,0.093733,,,,,
3244.15,0.093616,,,,,
3240.29,0.093788,,,,,
3236.43,0.093727,,,,,
3232.58,0.093924,,,,,
3228.72,0.093933,,,,,
3224.86,0.09417,,,,,
3221,0.093967,,,,,
3217.15,0.093803,,,,,
3213.29,0.093593,,,,,
3209.43,0.09365,,,,,
3205.57,0.093648,,,,,
3201.72,0.093421,,,,,
3197.86,0.093267,,,,,
3194,0.093514,,,,,
3190.14,0.093648,,,,,
3186.29,0.093644,,,,,
3182.43,0.094015,,,,,
3178.57,0.093933,,,,,
3174.71,0.093669,,,,,
3170.86,0.093677,,,,,
3167,0.093985,,,,,
3163.14,0.093833,,,,,
3159.28,0.094084,,,,,
3155.43,0.094291,,,,,
3151.57,0.094097,,,,,
3147.71,0.094312,,,,,
3143.85,0.094478,,,,,
3140,0.094554,,,,,
3136.14,0.094707,,,,,
3132.28,0.094469,,,,,
3128.42,0.094489,,,,,
3124.57,0.094286,,,,,
3120.71,0.094542,,,,,
3116.85,0.094673,,,,,
3112.99,0.094503,,,,,
3109.14,0.094571,,,,,
3105.28,0.094166,,,,,
3101.42,0.094002,,,,,
3097.56,0.094,,,,,
3093.71,0.094143,,,,,
3089.85,0.094024,,,,,
3085.99,0.093727,,,,,
3082.13,0.093253,,,,,
3078.28,0.092635,,,,,
3074.42,0.092238,,,,,
3070.56,0.092049,,,,,
3066.7,0.092206,,,,,
3062.85,0.092524,,,,,
3058.99,0.092994,,,,,
3055.13,0.093094,,,,,
3051.27,0.09311,,,,,
3047.42,0.093484,,,,,
3043.56,0.093541,,,,,
3039.7,0.093525,,,,,
3035.84,0.09347,,,,,
3031.99,0.093119,,,,,
3028.13,0.093253,,,,,
3024.27,0.093598,,,,,
3020.41,0.093571,,,,,
3016.56,0.093115,,,,,
3012.7,0.092671,,,,,
3008.84,0.092028,,,,,
3004.98,0.090623,,,,,
3001.13,0.08952,,,,,
2997.27,0.087958,,,,,
2993.41,0.085632,,,,,
2989.55,0.081976,,,,,
2985.7,0.076826,,,,,
2981.84,0.070116,,,,,
2977.98,0.061142,,,,,
2974.12,0.049128,,,,,
2970.27,0.034354,,,,,
2966.41,0.018612,,,,,
2962.55,0.005232,,,,,
2958.69,0.001123,,,,,
2954.84,0.009329,,,,,
2950.98,0.022082,,,,,
2947.12,0.030876,,,,,
2943.26,0.033244,,,,,
2939.41,0.030316,,,,,
2935.55,0.025478,,,,,
2931.69,0.024162,,,,,
2927.83,0.027991,,,,,
2923.98,0.032169,,,,,
2920.12,0.032732,,,,,
2916.26,0.032657,,,,,
2912.4,0.035528,,,,,
2908.55,0.038967,,,,,
2904.69,0.043143,,,,,
2900.83,0.047734,,,,,
2896.97,0.052664,,,,,
2893.12,0.057296,,,,,
2889.26,0.061359,,,,,
2885.4,0.062798,,,,,
2881.54,0.059102,,,,,
2877.69,0.050531,,,,,
2873.83,0.044056,,,,,
2869.97,0.046342,,,,,
2866.11,0.05241,,,,,
2862.26,0.058466,,,,,
2858.4,0.063871,,,,,
2854.54,0.066901,,,,,
2850.68,0.067064,,,,,
2846.83,0.068447,,,,,
2842.97,0.072779,,,,,
2839.11,0.076456,,,,,
2835.25,0.079398,,,,,
2831.4,0.081265,,,,,
2827.54,0.082473,,,,,
2823.68,0.083177,,,,,
2819.82,0.083548,,,,,
2815.97,0.084,,,,,
2812.11,0.084911,,,,,
2808.25,0.085725,,,,,
2804.39,0.086552,,,,,
2800.54,0.0871,,,,,
2796.68,0.087698,,,,,
2792.82,0.088185,,,,,
2788.96,0.088528,,,,,
2785.11,0.088808,,,,,
2781.25,0.08891,,,,,
2777.39,0.089081,,,,,
2773.53,0.089219,,,,,
2769.68,0.089394,,,,,
2765.82,0.089509,,,,,
2761.96,0.089514,,,,,
2758.1,0.089696,,,,,
2754.25,0.089761,,,,,
2750.39,0.089771,,,,,
2746.53,0.089764,,,,,
2742.67,0.089531,,,,,
2738.82,0.089761,,,,,
2734.96,0.089564,,,,,
2731.1,0.089794,,,,,
2727.24,0.090001,,,,,
2723.39,0.090405,,,,,
2719.53,0.090865,,,,,
2715.67,0.091014,,,,,
2711.81,0.091136,,,,,
2707.96,0.091219,,,,,
2704.1,0.09137,,,,,
2700.24,0.091315,,,,,
2696.38,0.091262,,,,,
2692.53,0.091318,,,,,
2688.67,0.09145,,,,,
2684.81,0.091526,,,,,
2680.95,0.091571,,,,,
2677.1,0.091747,,,,,
2673.24,0.091708,,,,,
2669.38,0.091527,,,,,
2665.52,0.091621,,,,,
2661.67,0.091682,,,,,
2657.81,0.091719,,,,,
2653.95,0.091462,,,,,
2650.09,0.090995,,,,,
2646.24,0.090951,,,,,
2642.38,0.090639,,,,,
2638.52,0.090095,,,,,
2634.66,0.089816,,,,,
2630.81,0.089358,,,,,
2626.95,0.088692,,,,,
2623.09,0.088056,,,,,
2619.23,0.087275,,,,,
2615.38,0.086704,,,,,
2611.52,0.086292,,,,,
2607.66,0.085476,,,,,
2603.8,0.084797,,,,,
2599.95,0.084556,,,,,
2596.09,0.084091,,,,,
2592.23,0.083336,,,,,
2588.37,0.08305,,,,,
2584.52,0.083132,,,,,
2580.66,0.082085,,,,,
2576.8,0.081761,,,,,
2572.94,0.081919,,,,,
2569.09,0.081506,,,,,
2565.23,0.080715,,,,,
2561.37,0.08077,,,,,
2557.51,0.080892,,,,,
2553.66,0.080825,,,,,
2549.8,0.08019,,,,,
2545.94,0.080275,,,,,
2542.08,0.079937,,,,,
2538.23,0.079582,,,,,
2534.37,0.079248,,,,,
2530.51,0.079385,,,,,
2526.65,0.079128,,,,,
2522.8,0.079082,,,,,
2518.94,0.079037,,,,,
2515.08,0.078815,,,,,
2511.22,0.078925,,,,,
2507.37,0.078621,,,,,
2503.51,0.07884,,,,,
2499.65,0.079289,,,,,
2495.79,0.080123,,,,,
2491.94,0.080252,,,,,
2488.08,0.080343,,,,,
2484.22,0.080342,,,,,
2480.36,0.080428,,,,,
2476.51,0.08052,,,,,
2472.65,0.08071,,,,,
2468.79,0.08102,,,,,
2464.93,0.081189,,,,,
2461.08,0.081626,,,,,
2457.22,0.081357,,,,,
2453.36,0.080908,,,,,
2449.5,0.080779,,,,,
2445.65,0.080816,,,,,
2441.79,0.081286,,,,,
2437.93,0.081462,,,,,
2434.08,0.080728,,,,,
2430.22,0.081012,,,,,
2426.36,0.081548,,,,,
2422.5,0.081859,,,,,
2418.65,0.081941,,,,,
2414.79,0.08201,,,,,
2410.93,0.082064,,,,,
2407.07,0.082641,,,,,
2403.22,0.082956,,,,,
2399.36,0.083625,,,,,
2395.5,0.084096,,,,,
2391.64,0.084348,,,,,
2387.79,0.084736,,,,,
2383.93,0.085264,,,,,
2380.07,0.085882,,,,,
2376.21,0.08672,,,,,
2372.36,0.087562,,,,,
2368.5,0.088538,,,,,
2364.64,0.089448,,,,,
2360.78,0.089846,,,,,
2356.93,0.090054,,,,,
2353.07,0.089861,,,,,
2349.21,0.089901,,,,,
2345.35,0.090193,,,,,
2341.5,0.09045,,,,,
2337.64,0.090494,,,,,
2333.78,0.090529,,,,,
2329.92,0.090572,,,,,
2326.07,0.090675,,,,,
2322.21,0.089255,,,,,
2318.35,0.087275,,,,,
2314.49,0.086037,,,,,
2310.64,0.084649,,,,,
2306.78,0.083316,,,,,
2302.92,0.082262,,,,,
2299.06,0.081368,,,,,
2295.21,0.079886,,,,,
2291.35,0.078008,,,,,
2287.49,0.075954,,,,,
2283.63,0.07334,,,,,
2279.78,0.070987,,,,,
2275.92,0.069289,,,,,
2272.06,0.067783,,,,,
2268.2,0.066114,,,,,
2264.35,0.063924,,,,,
2260.49,0.063457,,,,,
2256.63,0.061924,,,,,
2252.77,0.060165,,,,,
2248.92,0.058972,,,,,
2245.06,0.057204,,,,,
2241.2,0.055771,,,,,
2237.34,0.055224,,,,,
2233.49,0.052771,,,,,
2229.63,0.051775,,,,,
2225.77,0.051256,,,,,
2221.91,0.050566,,,,,
2218.06,0.049247,,,,,
2214.2,0.047069,,,,,
2210.34,0.045925,,,,,
2206.48,0.044371,,,,,
2202.63,0.043482,,,,,
2198.77,0.041865,,,,,
2194.91,0.040309,,,,,
2191.05,0.039349,,,,,
2187.2,0.038374,,,,,
2183.34,0.035895,,,,,
2179.48,0.036003,,,,,
2175.62,0.034426,,,,,
2171.77,0.033727,,,,,
2167.91,0.033386,,,,,
2164.05,0.029638,,,,,
2160.19,0.025873,,,,,
2156.34,0.028686,,,,,
2152.48,0.034161,,,,,
2148.62,0.037087,,,,,
2144.76,0.040202,,,,,
2140.91,0.04357,,,,,
2137.05,0.046937,,,,,
2133.19,0.050263,,,,,
2129.33,0.05458,,,,,
2125.48,0.057581,,,,,
2121.62,0.059027,,,,,
2117.76,0.059786,,,,,
2113.9,0.060198,,,,,
2110.05,0.059713,,,,,
2106.19,0.058937,,,,,
2102.33,0.057609,,,,,
2098.47,0.057054,,,,,
2094.62,0.057168,,,,,
2090.76,0.058646,,,,,
2086.9,0.058532,,,,,
2083.04,0.057249,,,,,
2079.19,0.055797,,,,,
2075.33,0.054497,,,,,
2071.47,0.052806,,,,,
2067.61,0.050488,,,,,
2063.76,0.04996,,,,,
2059.9,0.048776,,,,,
2056.04,0.046418,,,,,
2052.18,0.044398,,,,,
2048.33,0.039479,,,,,
2044.47,0.036967,,,,,
2040.61,0.034906,,,,,
2036.75,0.03208,,,,,
2032.9,0.030149,,,,,
2029.04,0.031185,,,,,
2025.18,0.031061,,,,,
2021.32,0.030632,,,,,
2017.47,0.030323,,,,,
2013.61,0.032599,,,,,
2009.75,0.033075,,,,,
2005.89,0.033201,,,,,
2002.04,0.035664,,,,,
1998.18,0.037404,,,,,
1994.32,0.036756,,,,,
1990.46,0.036637,,,,,
1986.61,0.03656,,,,,
1982.75,0.034762,,,,,
1978.89,0.031274,,,,,
1975.03,0.031075,,,,,
1971.18,0.032679,,,,,
1967.32,0.034891,,,,,
1963.46,0.036957,,,,,
1959.6,0.039406,,,,,
1955.75,0.041816,,,,,
1951.89,0.044962,,,,,
1948.03,0.047913,,,,,
1944.17,0.050361,,,,,
1940.32,0.052585,,,,,
1936.46,0.055011,,,,,
1932.6,0.057692,,,,,
1928.74,0.060489,,,,,
1924.89,0.062184,,,,,
1921.03,0.064706,,,,,
1917.17,0.065562,,,,,
1913.31,0.066947,,,,,
1909.46,0.068482,,,,,
1905.6,0.069779,,,,,
1901.74,0.071209,,,,,
1897.88,0.072395,,,,,
1894.03,0.073409,,,,,
1890.17,0.074665,,,,,
1886.31,0.075848,,,,,
1882.45,0.077012,,,,,
1878.6,0.078139,,,,,
1874.74,0.078746,,,,,
1870.88,0.079211,,,,,
1867.02,0.080797,,,,,
1863.17,0.081572,,,,,
1859.31,0.082356,,,,,
1855.45,0.083119,,,,,
1851.59,0.084041,,,,,
1847.74,0.084924,,,,,
1843.88,0.085996,,,,,
1840.02,0.086696,,,,,
1836.16,0.087798,,,,,
1832.31,0.08849,,,,,
1828.45,0.089383,,,,,
1824.59,0.090383,,,,,
1820.73,0.090946,,,,,
1816.88,0.092335,,,,,
1813.02,0.09383,,,,,
1809.16,0.094593,,,,,
1805.3,0.094833,,,,,
1801.45,0.094129,,,,,
1797.59,0.093885,,,,,
1793.73,0.094393,,,,,
1789.87,0.095844,,,,,
1786.02,0.096782,,,,,
1782.16,0.097234,,,,,
1778.3,0.09708,,,,,
1774.44,0.097149,,,,,
1770.59,0.096967,,,,,
1766.73,0.096181,,,,,
1762.87,0.095297,,,,,
1759.01,0.093343,,,,,
1755.16,0.089336,,,,,
1751.3,0.080633,,,,,
1747.44,0.063098,,,,,
1743.58,0.03339,,,,,
1739.73,-0.008768,,,,,
1735.87,-0.056963,,,,,
1732.01,-0.109429,,,,,
1728.15,-0.15819,,,,,
1724.3,-0.200765,,,,,
1720.44,-0.225193,,,,,
1716.58,-0.215137,,,,,
1712.72,-0.166248,,,,,
1708.87,-0.099797,,,,,
1705.01,-0.041583,,,,,
1701.15,-0.00245,,,,,
1697.29,0.021766,,,,,
1693.44,0.035304,,,,,
1689.58,0.042969,,,,,
1685.72,0.048036,,,,,
1681.86,0.051836,,,,,
1678.01,0.055649,,,,,
1674.15,0.060229,,,,,
1670.29,0.064726,,,,,
1666.43,0.068356,,,,,
1662.58,0.071048,,,,,
1658.72,0.072966,,,,,
1654.86,0.074719,,,,,
1651,0.076172,,,,,
1647.15,0.076839,,,,,
1643.29,0.077311,,,,,
1639.43,0.078077,,,,,
1635.57,0.07919,,,,,
1631.72,0.080237,,,,,
1627.86,0.08105,,,,,
1624,0.082221,,,,,
1620.15,0.083457,,,,,
1616.29,0.084637,,,,,
1612.43,0.085189,,,,,
1608.57,0.08394,,,,,
1604.72,0.076761,,,,,
1600.86,0.066508,,,,,
1597,0.068422,,,,,
1593.14,0.078047,,,,,
1589.29,0.082264,,,,,
1585.43,0.078213,,,,,
1581.57,0.068159,,,,,
1577.71,0.068822,,,,,
1573.86,0.07919,,,,,
1570,0.084473,,,,,
1566.14,0.086537,,,,,
1562.28,0.08741,,,,,
1558.43,0.087819,,,,,
1554.57,0.087087,,,,,
1550.71,0.085759,,,,,
1546.85,0.083287,,,,,
1543,0.079469,,,,,
1539.14,0.07617,,,,,
1535.28,0.076588,,,,,
1531.42,0.078006,,,,,
1527.57,0.07814,,,,,
1523.71,0.077406,,,,,
1519.85,0.076208,,,,,
1515.99,0.074707,,,,,
1512.14,0.072779,,,,,
1508.28,0.070794,,,,,
1504.42,0.068037,,,,,
1500.56,0.064758,,,,,
1496.71,0.059899,,,,,
1492.85,0.051126,,,,,
1488.99,0.040299,,,,,
1485.13,0.036852,,,,,
1481.28,0.035447,,,,,
1477.42,0.027148,,,,,
1473.56,0.013404,,,,,
1469.7,-0.001214,,,,,
1465.85,-0.013716,,,,,
1461.99,-0.018504,,,,,
1458.13,-0.020703,,,,,
1454.27,-0.021946,,,,,
1450.42,-0.026497,,,,,
1446.56,-0.030135,,,,,
1442.7,-0.026563,,,,,
1438.84,-0.034375,,,,,
1434.99,-0.050515,,,,,
1431.13,-0.057806,,,,,
1427.27,-0.064512,,,,,
1423.41,-0.063987,,,,,
1419.56,-0.054234,,,,,
1415.7,-0.045866,,,,,
1411.84,-0.035771,,,,,
1407.98,-0.022987,,,,,
1404.13,-0.012304,,,,,
1400.27,-0.00738,,,,,
1396.41,-0.008023,,,,,
1392.55,-0.012754,,,,,
1388.7,-0.019446,,,,,
1384.84,-0.024212,,,,,
1380.98,-0.020939,,,,,
1377.12,-0.007342,,,,,
1373.27,0.005795,,,,,
1369.41,0.013607,,,,,
1365.55,0.021794,,,,,
1361.69,0.025041,,,,,
1357.84,0.02267,,,,,
1353.98,0.023192,,,,,
1350.12,0.030731,,,,,
1346.26,0.03594,,,,,
1342.41,0.032047,,,,,
1338.55,0.024,,,,,
1334.69,0.019704,,,,,
1330.83,0.015739,,,,,
1326.98,0.009625,,,,,
1323.12,0.013084,,,,,
1319.26,0.021753,,,,,
1315.4,0.021493,,,,,
1311.55,0.009294,,,,,
1307.69,-0.011711,,,,,
1303.83,-0.036753,,,,,
1299.97,-0.06994,,,,,
1296.12,-0.114835,,,,,
1292.26,-0.173508,,,,,
1288.4,-0.227323,,,,,
1284.54,-0.258787,,,,,
1280.69,-0.277803,,,,,
1276.83,-0.285662,,,,,
1272.97,-0.275439,,,,,
1269.11,-0.258858,,,,,
1265.26,-0.254338,,,,,
1261.4,-0.258361,,,,,
1257.54,-0.260092,,,,,
1253.68,-0.250353,,,,,
1249.83,-0.225399,,,,,
1245.97,-0.198879,,,,,
1242.11,-0.172716,,,,,
1238.25,-0.143481,,,,,
1234.4,-0.116337,,,,,
1230.54,-0.094588,,,,,
1226.68,-0.070902,,,,,
1222.82,-0.043704,,,,,
1218.97,-0.022531,,,,,
1215.11,-0.010255,,,,,
1211.25,-0.00333,,,,,
1207.39,0.000701,,,,,
1203.54,0.002439,,,,,
1199.68,0.003362,,,,,
1195.82,0.005291,,,,,
1191.96,0.009531,,,,,
1188.11,0.016095,,,,,
1184.25,0.023575,,,,,
1180.39,0.029019,,,,,
1176.53,0.03085,,,,,
1172.68,0.028918,,,,,
1168.82,0.025754,,,,,
1164.96,0.022784,,,,,
1161.1,0.021584,,,,,
1157.25,0.016163,,,,,
1153.39,0.00575,,,,,
1149.53,-0.006485,,,,,
1145.67,-0.028447,,,,,
1141.82,-0.064311,,,,,
1137.96,-0.09658,,,,,
1134.1,-0.113492,,,,,
1130.24,-0.12691,,,,,
1126.39,-0.148259,,,,,
1122.53,-0.174768,,,,,
1118.67,-0.181902,,,,,
1114.81,-0.151133,,,,,
1110.96,-0.0984,,,,,
1107.1,-0.055405,,,,,
1103.24,-0.029798,,,,,
1099.38,-0.013918,,,,,
1095.53,-0.002969,,,,,
1091.67,0.00429,,,,,
1087.81,0.005613,,,,,
1083.95,-0.009922,,,,,
1080.1,-0.066293,,,,,
1076.24,-0.149289,,,,,
1072.38,-0.186179,,,,,
1068.52,-0.15215,,,,,
1064.67,-0.101712,,,,,
1060.81,-0.068514,,,,,
1056.95,-0.04546,,,,,
1053.09,-0.022119,,,,,
1049.24,-0.002959,,,,,
1045.38,0.001662,,,,,
1041.52,-0.015605,,,,,
1037.66,-0.023534,,,,,
1033.81,-0.003097,,,,,
1029.95,0.014713,,,,,
1026.09,0.022463,,,,,
1022.23,0.022996,,,,,
1018.38,0.020441,,,,,
1014.52,0.021552,,,,,
1010.66,0.027446,,,,,
1006.8,0.033464,,,,,
1002.95,0.035547,,,,,
999.089,0.033217,,,,,
995.232,0.027864,,,,,
991.374,0.02426,,,,,
987.517,0.025565,,,,,
983.659,0.027666,,,,,
979.802,0.025576,,,,,
975.945,0.018365,,,,,
972.087,0.004999,,,,,
968.23,-0.013193,,,,,
964.372,-0.03003,,,,,
960.515,-0.035475,,,,,
956.657,-0.029895,,,,,
952.8,-0.021044,,,,,
948.942,-0.017261,,,,,
945.085,-0.021519,,,,,
941.227,-0.026297,,,,,
937.37,-0.021489,,,,,
933.512,-0.011402,,,,,
929.655,-0.000597,,,,,
925.797,0.011881,,,,,
921.94,0.023499,,,,,
918.082,0.03185,,,,,
914.225,0.037986,,,,,
910.367,0.042364,,,,,
906.51,0.04504,,,,,
902.652,0.047781,,,,,
898.795,0.052006,,,,,
894.937,0.055206,,,,,
891.08,0.056727,,,,,
887.222,0.051738,,,,,
883.365,0.032515,,,,,
879.507,0.00447,,,,,
875.65,-0.030769,,,,,
871.792,-0.033473,,,,,
867.935,-0.005447,,,,,
864.077,0.015243,,,,,
860.22,0.02496,,,,,
856.362,0.030987,,,,,
852.505,0.034122,,,,,
848.647,0.029601,,,,,
844.79,0.024268,,,,,
840.932,0.024013,,,,,
837.075,0.02745,,,,,
833.217,0.03381,,,,,
829.36,0.041285,,,,,
825.502,0.049672,,,,,
821.645,0.057983,,,,,
817.787,0.065224,,,,,
813.93,0.069612,,,,,
810.073,0.070271,,,,,
806.215,0.067447,,,,,
802.358,0.060495,,,,,
798.5,0.052219,,,,,
794.643,0.048084,,,,,
790.785,0.046477,,,,,
786.928,0.045728,,,,,
783.07,0.045809,,,,,
779.213,0.046855,,,,,
775.355,0.048149,,,,,
771.498,0.050115,,,,,
767.64,0.053155,,,,,
763.783,0.054129,,,,,
759.925,0.048092,,,,,
756.068,0.029659,,,,,
752.21,-0.003438,,,,,
748.3527,-0.046513,,,,,
744.495,-0.078704,,,,,
740.638,-0.085992,,,,,
736.78,-0.075945,,,,,
732.923,-0.044228,,,,,
729.065,0.000148,,,,,
725.208,0.030425,,,,,
721.35,0.045188,,,,,
717.493,0.044247,,,,,
713.635,0.015752,,,,,
709.778,-0.008638,,,,,
705.92,-0.027716,,,,,
702.063,-0.030149,,,,,
698.205,-0.022473,,,,,
694.348,-0.022304,,,,,
690.49,-0.019207,,,,,
686.633,-0.008467,,,,,
682.775,0.001073,,,,,
678.918,0.007076,,,,,
675.06,0.01388,,,,,
671.203,0.023498,,,,,
667.345,0.0342,,,,,
663.488,0.042205,,,,,
659.63,0.044799,,,,,
655.773,0.033778,,,,,
651.915,0.007166,,,,,
648.058,-0.004386,,,,,
644.201,-0.007523,,,,,
640.343,-0.016156,,,,,
636.486,-0.023464,,,,,
632.628,-0.023338,,,,,
628.771,-0.022008,,,,,
624.913,-0.025597,,,,,
621.056,-0.032387,,,,,
617.198,-0.040735,,,,,
613.341,-0.048865,,,,,
609.483,-0.051155,,,,,
605.626,-0.04452,,,,,
601.768,-0.022786,,,,,
597.911,0.003589,,,,,
594.053,0.023595,,,,,
590.196,0.03484,,,,,
586.338,0.043331,,,,,
582.481,0.048853,,,,,
578.623,0.048924,,,,,
574.766,0.044229,,,,,
570.908,0.040049,,,,,
567.051,0.039354,,,,,
563.193,0.045123,,,,,
559.336,0.053609,,,,,
555.478,0.060169,,,,,
551.621,0.063539,,,,,
547.763,0.065459,,,,,
543.906,0.066761,,,,,
540.048,0.06821,,,,,
536.191,0.06999,,,,,
532.333,0.071751,,,,,
528.476,0.07536,,,,,
524.618,0.075858,,,,,
520.7609,0.076428,,,,,
516.903,0.078692,,,,,
513.046,0.078659,,,,,
509.188,0.074838,,,,,
505.331,0.068822,,,,,
501.473,0.06376,,,,,
497.616,0.065432,,,,,
493.758,0.069012,,,,,
489.901,0.07108,,,,,
486.044,0.073552,,,,,
482.186,0.074844,,,,,
478.329,0.075484,,,,,
474.471,0.076151,,,,,
470.614,0.076336,,,,,
466.756,0.076784,,,,,
462.899,0.07651,,,,,
459.041,0.076286,,,,,
455.184,0.074316,,,,,
451.326,0.071595,,,,,
447.469,0.068699,,,,,
443.611,0.066757,,,,,
439.754,0.067858,,,,,
435.896,0.067137,,,,,
432.039,0.066819,,,,,
428.181,0.062467,,,,,
424.324,0.061758,,,,,
420.466,0.062908,,,,,
416.609,0.062535,,,,,
412.751,0.0588,,,,,
408.894,0.053204,,,,,
405.036,0.051879,,,,,
401.179,0.051787,,,,,
399.25,0.050832,,,,,